TITLE	AuNP-gruppo7
DATA TYPE	ULTRAVIOLET SPECTRUM
ORIGIN	JASCO
OWNER	
DATE	21/05/06
TIME	16:42:36
SPECTROMETER/DATA SYSTEM	
RESOLUTION	
DELTAX	-1
XUNITS	NANOMETERS
YUNITS	ABSORBANCE
FIRSTX	  850.0000
LASTX	  400.0000
NPOINTS	     451
FIRSTY	     0.01243
MAXY	     0.81365
MINY	     0.01243
XYDATA
850.0000	0.0124259
849.0000	0.0124999
848.0000	0.0126082
847.0000	0.0125966
846.0000	0.0126137
845.0000	0.0127214
844.0000	0.0128851
843.0000	0.0129418
842.0000	0.0130155
841.0000	0.0130476
840.0000	0.0130189
839.0000	0.0130764
838.0000	0.0131931
837.0000	0.0132759
836.0000	0.0132706
835.0000	0.0133139
834.0000	0.0133638
833.0000	0.0134176
832.0000	0.0135316
831.0000	0.0136584
830.0000	0.0138046
829.0000	0.0139157
828.0000	0.0139038
827.0000	0.0139479
826.0000	0.014073
825.0000	0.0141924
824.0000	0.0142562
823.0000	0.0143438
822.0000	0.0143614
821.0000	0.0144628
820.0000	0.0145935
819.0000	0.014648
818.0000	0.014816
817.0000	0.0149395
816.0000	0.0149975
815.0000	0.0150389
814.0000	0.0151194
813.0000	0.0151412
812.0000	0.0152674
811.0000	0.0154273
810.0000	0.01556
809.0000	0.0156864
808.0000	0.0158326
807.0000	0.015954
806.0000	0.016145
805.0000	0.0162278
804.0000	0.0163157
803.0000	0.0164338
802.0000	0.0165324
801.0000	0.0166277
800.0000	0.0167846
799.0000	0.0169636
798.0000	0.0170784
797.0000	0.0172116
796.0000	0.0173796
795.0000	0.017507
794.0000	0.0176084
793.0000	0.0177245
792.0000	0.0178625
791.0000	0.0179618
790.0000	0.018059
789.0000	0.0181836
788.0000	0.0182647
787.0000	0.0184024
786.0000	0.018521
785.0000	0.0186727
784.0000	0.0187725
783.0000	0.0188714
782.0000	0.0190219
781.0000	0.0191124
780.0000	0.0192405
779.0000	0.0193332
778.0000	0.0194865
777.0000	0.0196103
776.0000	0.0197581
775.0000	0.0199229
774.0000	0.0201244
773.0000	0.020275
772.0000	0.0204891
771.0000	0.0206601
770.0000	0.0208512
769.0000	0.0210014
768.0000	0.0211938
767.0000	0.0213884
766.0000	0.0215577
765.0000	0.0217941
764.0000	0.0219585
763.0000	0.0221457
762.0000	0.022355
761.0000	0.0225458
760.0000	0.0227636
759.0000	0.0229449
758.0000	0.0230793
757.0000	0.0232554
756.0000	0.0234337
755.0000	0.023588
754.0000	0.0237519
753.0000	0.0239837
752.0000	0.0241614
751.0000	0.0243633
750.0000	0.0245998
749.0000	0.0247907
748.0000	0.0250357
747.0000	0.0252829
746.0000	0.0254848
745.0000	0.0257102
744.0000	0.0259445
743.0000	0.0261688
742.0000	0.0264502
741.0000	0.0267204
740.0000	0.0267193
739.0000	0.0269677
738.0000	0.0272343
737.0000	0.0274922
736.0000	0.0277185
735.0000	0.0279794
734.0000	0.0282207
733.0000	0.0285244
732.0000	0.0287567
731.0000	0.0290276
730.0000	0.0293332
729.0000	0.0296297
728.0000	0.0298823
727.0000	0.0302205
726.0000	0.0305307
725.0000	0.0308444
724.0000	0.0311484
723.0000	0.0314548
722.0000	0.0317604
721.0000	0.0320802
720.0000	0.0324337
719.0000	0.0327933
718.0000	0.0331388
717.0000	0.0334827
716.0000	0.0338441
715.0000	0.034216
714.0000	0.0345742
713.0000	0.034901
712.0000	0.0352836
711.0000	0.0356408
710.0000	0.0360357
709.0000	0.0364435
708.0000	0.0368839
707.0000	0.0373212
706.0000	0.0377773
705.0000	0.038194
704.0000	0.0386419
703.0000	0.0390699
702.0000	0.0395122
701.0000	0.0399843
700.0000	0.0404722
699.0000	0.040934
698.0000	0.0414138
697.0000	0.041921
696.0000	0.0424258
695.0000	0.042941
694.0000	0.0434552
693.0000	0.0440086
692.0000	0.0445486
691.0000	0.0451174
690.0000	0.0456806
689.0000	0.0462638
688.0000	0.0468471
687.0000	0.0474413
686.0000	0.0480764
685.0000	0.0487313
684.0000	0.0493595
683.0000	0.0500034
682.0000	0.0506789
681.0000	0.0513617
680.0000	0.0520935
679.0000	0.0528215
678.0000	0.0535521
677.0000	0.0543065
676.0000	0.0550781
675.0000	0.055854
674.0000	0.0566541
673.0000	0.0574661
672.0000	0.0583092
671.0000	0.0592107
670.0000	0.0601432
669.0000	0.06105
668.0000	0.0619904
667.0000	0.0629566
666.0000	0.0639164
665.0000	0.0649167
664.0000	0.0659333
663.0000	0.0669896
662.0000	0.0680786
661.0000	0.0691598
660.0000	0.0702864
659.0000	0.0714318
658.0000	0.0726237
657.0000	0.0738494
656.0000	0.075097
655.0000	0.0763422
654.0000	0.0776356
653.0000	0.0789833
652.0000	0.0803275
651.0000	0.0816886
650.0000	0.0831424
649.0000	0.0846281
648.0000	0.0861457
647.0000	0.0876946
646.0000	0.0893056
645.0000	0.0909405
644.0000	0.0926121
643.0000	0.0943546
642.0000	0.0961057
641.0000	0.0979153
640.0000	0.0997575
639.0000	0.101685
638.0000	0.103628
637.0000	0.10563
636.0000	0.107705
635.0000	0.109835
634.0000	0.111981
633.0000	0.114203
632.0000	0.11649
631.0000	0.118842
630.0000	0.121232
629.0000	0.123711
628.0000	0.126254
627.0000	0.128865
626.0000	0.131539
625.0000	0.134306
624.0000	0.137153
623.0000	0.140026
622.0000	0.142987
621.0000	0.14605
620.0000	0.149235
619.0000	0.152503
618.0000	0.155842
617.0000	0.159272
616.0000	0.162808
615.0000	0.166429
614.0000	0.170151
613.0000	0.17397
612.0000	0.17791
611.0000	0.181955
610.0000	0.186119
609.0000	0.190377
608.0000	0.194759
607.0000	0.199292
606.0000	0.203996
605.0000	0.208804
604.0000	0.213721
603.0000	0.218768
602.0000	0.223981
601.0000	0.22933
600.0000	0.234771
599.0000	0.240405
598.0000	0.246238
597.0000	0.252215
596.0000	0.258348
595.0000	0.264641
594.0000	0.271097
593.0000	0.277706
592.0000	0.284469
591.0000	0.291388
590.0000	0.298499
589.0000	0.305754
588.0000	0.313177
587.0000	0.320796
586.0000	0.32858
585.0000	0.336543
584.0000	0.344668
583.0000	0.352982
582.0000	0.361418
581.0000	0.370042
580.0000	0.378864
579.0000	0.387845
578.0000	0.397014
577.0000	0.406318
576.0000	0.415796
575.0000	0.425434
574.0000	0.4352
573.0000	0.445111
572.0000	0.455178
571.0000	0.465333
570.0000	0.475625
569.0000	0.486044
568.0000	0.496535
567.0000	0.507139
566.0000	0.517846
565.0000	0.528615
564.0000	0.539444
563.0000	0.550303
562.0000	0.561188
561.0000	0.572115
560.0000	0.583026
559.0000	0.593904
558.0000	0.604717
557.0000	0.615508
556.0000	0.626191
555.0000	0.636771
554.0000	0.64724
553.0000	0.657526
552.0000	0.667682
551.0000	0.677655
550.0000	0.687423
549.0000	0.696977
548.0000	0.706269
547.0000	0.715289
546.0000	0.724015
545.0000	0.732439
544.0000	0.740523
543.0000	0.74828
542.0000	0.755706
541.0000	0.762732
540.0000	0.769399
539.0000	0.775668
538.0000	0.781474
537.0000	0.786867
536.0000	0.791822
535.0000	0.796276
534.0000	0.800247
533.0000	0.803704
532.0000	0.806686
531.0000	0.809146
530.0000	0.81107
529.0000	0.812454
528.0000	0.813338
527.0000	0.813653
526.0000	0.813407
525.0000	0.812577
524.0000	0.811149
523.0000	0.809154
522.0000	0.806607
521.0000	0.80352
520.0000	0.799968
519.0000	0.795753
518.0000	0.790954
517.0000	0.785612
516.0000	0.779797
515.0000	0.77349
514.0000	0.766729
513.0000	0.75953
512.0000	0.751942
511.0000	0.744011
510.0000	0.735747
509.0000	0.727186
508.0000	0.718335
507.0000	0.709312
506.0000	0.700112
505.0000	0.690775
504.0000	0.681349
503.0000	0.67192
502.0000	0.662474
501.0000	0.653081
500.0000	0.643792
499.0000	0.634606
498.0000	0.625545
497.0000	0.616663
496.0000	0.607996
495.0000	0.599525
494.0000	0.591301
493.0000	0.583321
492.0000	0.575649
491.0000	0.568263
490.0000	0.561166
489.0000	0.554331
488.0000	0.547839
487.0000	0.541594
486.0000	0.535646
485.0000	0.530025
484.0000	0.524688
483.0000	0.519616
482.0000	0.514833
481.0000	0.510308
480.0000	0.506014
479.0000	0.501994
478.0000	0.498176
477.0000	0.494638
476.0000	0.49126
475.0000	0.488116
474.0000	0.485118
473.0000	0.482383
472.0000	0.479782
471.0000	0.477357
470.0000	0.475116
469.0000	0.472989
468.0000	0.470992
467.0000	0.469149
466.0000	0.467429
465.0000	0.465807
464.0000	0.464343
463.0000	0.46294
462.0000	0.461681
461.0000	0.460514
460.0000	0.459437
459.0000	0.458437
458.0000	0.457551
457.0000	0.456675
456.0000	0.455911
455.0000	0.455246
454.0000	0.454599
453.0000	0.454053
452.0000	0.453514
451.0000	0.453079
450.0000	0.45271
449.0000	0.452416
448.0000	0.452122
447.0000	0.4519
446.0000	0.451723
445.0000	0.451582
444.0000	0.451489
443.0000	0.451429
442.0000	0.451423
441.0000	0.451492
440.0000	0.451583
439.0000	0.451715
438.0000	0.45186
437.0000	0.452069
436.0000	0.452282
435.0000	0.452549
434.0000	0.452813
433.0000	0.453097
432.0000	0.453471
431.0000	0.453807
430.0000	0.454191
429.0000	0.454582
428.0000	0.455046
427.0000	0.455522
426.0000	0.456004
425.0000	0.456488
424.0000	0.457029
423.0000	0.45756
422.0000	0.458144
421.0000	0.458684
420.0000	0.459344
419.0000	0.460028
418.0000	0.460719
417.0000	0.461388
416.0000	0.462142
415.0000	0.462928
414.0000	0.463702
413.0000	0.464485
412.0000	0.465347
411.0000	0.466251
410.0000	0.467112
409.0000	0.468019
408.0000	0.468927
407.0000	0.469896
406.0000	0.470863
405.0000	0.471895
404.0000	0.472965
403.0000	0.473961
402.0000	0.475
401.0000	0.476076
400.0000	0.477136
